ACCELEROMETER X (m/s²),ACCELEROMETER Y (m/s²),ACCELEROMETER Z (m/s²),LINEAR ACCELERATION X (m/s²),LINEAR ACCELERATION Y (m/s²),LINEAR ACCELERATION Z (m/s²),GYROSCOPE X (rad/s),GYROSCOPE Y (rad/s),GYROSCOPE Z (rad/s),Time since start in ms ,YYYY-MO-DD HH-MI-SS_SSS
0.7278,10.2089,0.5555,-0.215,0.4549,-0.0257,0.0117,0.0671,0.0,4,2019-05-15 16:11:22:122
0.7278,10.2089,0.5555,-0.1221,0.3062,0.0707,0.0053,0.0458,-0.0053,14,2019-05-15 16:11:22:132
0.8428,9.9886,0.5794,-0.1221,0.3062,0.0707,0.0096,0.0138,-0.0149,24,2019-05-15 16:11:22:142
0.8428,9.9886,0.5794,-0.0713,0.2388,0.0532,0.0181,0.017,-0.017,34,2019-05-15 16:11:22:152
0.9002,9.9599,0.5076,-0.0102,0.2096,-0.0156,0.0245,0.0373,-0.0192,45,2019-05-15 16:11:22:163
0.9002,9.9599,0.5076,-0.0102,0.2096,-0.0156,0.0341,0.0597,-0.0224,56,2019-05-15 16:11:22:174
0.7901,10.0078,0.4884,-0.0489,0.1898,-0.0066,0.0341,0.0597,-0.0224,64,2019-05-15 16:11:22:182
0.7901,10.0078,0.4884,-0.2202,0.2848,-0.0115,0.0405,0.0863,-0.032,74,2019-05-15 16:11:22:192
0.6847,10.0269,0.565,-0.2202,0.2848,-0.0115,0.0341,0.0874,-0.0426,84,2019-05-15 16:11:22:202
0.6129,9.9934,0.5459,-0.2074,0.2743,0.0544,0.0266,0.066,-0.0501,94,2019-05-15 16:11:22:212
0.6129,9.9934,0.5459,-0.2735,0.2401,0.0375,0.0277,0.0501,-0.0458,105,2019-05-15 16:11:22:223
0.7135,9.9551,0.5315,-0.2735,0.2401,0.0375,0.0277,0.0501,-0.0458,115,2019-05-15 16:11:22:233
0.7135,9.9551,0.5315,-0.1636,0.2008,0.027,0.0202,0.0362,-0.0352,125,2019-05-15 16:11:22:243
0.7997,9.9886,0.3879,-0.0722,0.2337,-0.114,0.0192,0.0447,-0.0277,134,2019-05-15 16:11:22:252
0.7997,9.9886,0.3879,-0.0722,0.2337,-0.114,0.0181,0.0565,-0.0256,144,2019-05-15 16:11:22:262
0.838,9.9934,0.4453,-3.0E-4,0.2715,-0.0642,0.0128,0.0746,-0.0256,155,2019-05-15 16:11:22:273
0.838,9.9934,0.4453,-0.0257,0.2376,-0.0542,0.0053,0.082,-0.0256,165,2019-05-15 16:11:22:283
0.7374,9.9695,0.5507,-0.1217,0.2133,0.0508,0.0032,0.0767,-0.0213,174,2019-05-15 16:11:22:292
0.7374,9.9695,0.5507,-0.1217,0.2133,0.0508,-0.0021,0.0639,-0.0064,184,2019-05-15 16:11:22:302
0.7757,9.9838,0.4645,-0.1195,0.2515,0.0309,-0.0053,0.0522,0.0043,194,2019-05-15 16:11:22:312
0.7757,9.9838,0.4645,0.0097,0.2851,0.0338,-0.0053,0.0522,0.0043,204,2019-05-15 16:11:22:322
0.8475,10.1323,0.5028,0.0097,0.2851,0.0338,-0.0107,0.0501,0.0117,214,2019-05-15 16:11:22:332
0.8475,10.1323,0.5028,-0.0101,0.3762,-0.0023,-0.0245,0.0458,0.0064,225,2019-05-15 16:11:22:343
0.8859,10.0604,0.5555,0.028,0.3047,0.0462,-0.0277,0.0415,0.0096,234,2019-05-15 16:11:22:352
0.8859,10.0604,0.5555,0.028,0.3047,0.0462,-0.0277,0.0415,0.0096,244,2019-05-15 16:11:22:362
0.8811,9.9742,0.6081,0.0222,0.2187,0.0958,-0.0288,0.0202,0.0181,255,2019-05-15 16:11:22:373
0.8811,9.9742,0.6081,0.0273,0.2385,0.1158,-0.0298,-0.0032,0.0405,264,2019-05-15 16:11:22:382
0.9768,9.9311,0.68,0.0273,0.2385,0.1158,-0.0298,-0.0032,0.0405,275,2019-05-15 16:11:22:393
0.9673,9.8928,0.6608,0.0963,0.1388,0.1407,-0.0288,-0.0245,0.0607,284,2019-05-15 16:11:22:402
0.9673,9.8928,0.6608,0.0963,0.1388,0.1407,-0.0288,-0.0245,0.0607,294,2019-05-15 16:11:22:412
0.9002,10.0078,0.6321,0.0154,0.2551,0.1091,-0.0107,-0.0373,0.0788,304,2019-05-15 16:11:22:422
0.9816,10.0461,0.4884,0.0824,0.2948,-0.0359,-0.0138,-0.0394,0.0724,314,2019-05-15 16:11:22:432
0.9816,10.0461,0.4884,0.0824,0.2948,-0.0359,-0.0138,-0.0394,0.0724,324,2019-05-15 16:11:22:442
1.0487,10.0126,0.4645,0.079,0.2573,-0.0174,-0.0043,-0.0362,0.0533,334,2019-05-15 16:11:22:452
1.0487,10.0126,0.4645,0.2125,0.2291,-0.1034,-0.0021,-0.0277,0.0405,344,2019-05-15 16:11:22:462
0.9433,10.0221,0.4118,0.2125,0.2291,-0.1034,-0.0043,-0.0202,0.0213,355,2019-05-15 16:11:22:473
0.9433,10.0221,0.4118,0.0291,0.2723,-0.1134,-0.0075,-0.016,0.0053,365,2019-05-15 16:11:22:483
0.8811,10.0173,0.3926,0.0291,0.2723,-0.1134,-0.0075,-0.016,0.0053,375,2019-05-15 16:11:22:493
0.9864,10.0317,0.4549,-0.0316,0.2674,-0.1329,-0.0021,-0.0384,-0.0085,384,2019-05-15 16:11:22:502
0.9864,10.0317,0.4549,0.1328,0.2576,-0.0794,0.0,-0.0384,-0.0085,395,2019-05-15 16:11:22:513
1.0678,9.979,0.4549,0.1328,0.2576,-0.0794,0.0032,-0.0085,-0.0192,404,2019-05-15 16:11:22:522
0.9529,9.9599,0.3639,0.1599,0.2286,-0.0688,0.0021,0.0117,-0.0277,414,2019-05-15 16:11:22:532
0.9529,9.9599,0.3639,-0.0943,0.1755,-0.0731,0.0021,0.0117,-0.0277,424,2019-05-15 16:11:22:542
0.6081,9.9072,0.4501,-0.2928,0.156,-0.0726,0.0032,0.0085,-0.0245,435,2019-05-15 16:11:22:553
0.6081,9.9072,0.4501,-0.2928,0.156,-0.0726,0.0011,-0.0224,-0.0107,445,2019-05-15 16:11:22:563
0.5938,9.9455,0.4645,-0.4154,0.151,-0.0094,0.0011,-0.0224,-0.0107,454,2019-05-15 16:11:22:572
0.5938,9.9455,0.4645,-0.3062,0.1941,-0.0561,0.0075,-0.049,0.017,464,2019-05-15 16:11:22:582
0.9481,9.9934,0.3974,0.0435,0.2423,-0.1206,0.0107,-0.0277,0.0373,475,2019-05-15 16:11:22:593
0.9481,9.9934,0.3974,0.0435,0.2423,-0.1206,0.0053,0.0064,0.0298,484,2019-05-15 16:11:22:602
0.7997,9.8593,0.4166,0.0495,0.2091,-0.1818,0.0,0.0298,0.017,495,2019-05-15 16:11:22:613
0.7997,9.8593,0.4166,-0.1096,0.1086,-0.1005,0.0,0.0298,0.017,505,2019-05-15 16:11:22:623
0.6177,9.8258,0.5363,-0.2943,0.0754,0.0189,-0.0043,0.0234,0.0245,514,2019-05-15 16:11:22:632
0.6177,9.8258,0.5363,-0.2943,0.0754,0.0189,-0.0043,0.0085,0.033,524,2019-05-15 16:11:22:642
0.8954,9.9216,0.4884,-0.212,0.1093,-0.0052,0.0021,0.0075,0.0352,534,2019-05-15 16:11:22:652
0.8954,9.9216,0.4884,-0.212,0.1093,-0.0052,0.0021,0.0075,0.0352,544,2019-05-15 16:11:22:662
1.0151,10.003,0.3735,0.0952,0.2533,-0.1437,0.0011,0.0181,0.033,554,2019-05-15 16:11:22:672
1.0343,9.9647,0.3831,0.113,0.2151,-0.135,-0.0043,0.0426,0.0107,565,2019-05-15 16:11:22:683
1.0343,9.9647,0.3831,0.113,0.2151,-0.135,-0.0085,0.0618,-0.0021,575,2019-05-15 16:11:22:693
0.9242,9.9695,0.5602,0.0288,0.2007,-0.0023,-0.0064,0.0575,-0.0085,585,2019-05-15 16:11:22:703
0.8045,9.9024,0.5986,-0.1123,0.1526,0.0788,0.0032,0.0405,-0.0107,594,2019-05-15 16:11:22:712
0.8045,9.9024,0.5986,-0.1123,0.1526,0.0788,0.0032,0.017,-0.0053,604,2019-05-15 16:11:22:722
0.8954,9.9551,0.5411,-0.019,0.205,0.0221,0.0032,0.017,-0.0053,615,2019-05-15 16:11:22:733
0.8954,9.9551,0.5411,-0.019,0.205,0.0221,0.0032,0.0149,0.0011,625,2019-05-15 16:11:22:743
0.9864,10.0365,0.4788,0.0296,0.1713,-0.0105,0.0064,0.0213,-0.0011,634,2019-05-15 16:11:22:752
0.9146,10.003,0.4357,0.0026,0.2525,-0.0817,0.0053,0.0373,-0.0064,644,2019-05-15 16:11:22:762
0.9146,10.003,0.4357,0.0026,0.2525,-0.0817,0.0053,0.0373,-0.0064,655,2019-05-15 16:11:22:773
0.8045,9.9359,0.5602,-0.0099,0.238,-0.0868,-0.0021,0.0511,-0.0053,664,2019-05-15 16:11:22:782
0.8045,9.9359,0.5602,-0.1676,0.1902,0.07,-0.0075,0.0394,0.0096,674,2019-05-15 16:11:22:792
0.7566,9.9503,0.6512,-0.1543,0.1999,0.1313,-0.0096,0.0245,0.017,685,2019-05-15 16:11:22:803
0.7566,9.9503,0.6512,-0.1543,0.1999,0.1313,-0.0085,0.0043,0.0266,695,2019-05-15 16:11:22:813
0.8715,9.9695,0.6225,-0.0806,0.2194,0.0729,-0.0085,0.0043,0.0266,705,2019-05-15 16:11:22:823
0.8715,9.9695,0.6225,0.0017,0.2389,0.0196,-0.0053,-0.0032,0.0298,714,2019-05-15 16:11:22:832
0.9625,10.003,0.5171,0.0017,0.2389,0.0196,-0.0043,0.0,0.032,724,2019-05-15 16:11:22:842
0.996,10.0509,0.5076,0.041,0.2537,-0.0048,-0.0043,0.0064,0.0309,735,2019-05-15 16:11:22:853
0.996,10.0509,0.5076,0.1383,0.2349,-0.0199,-0.0043,0.0277,0.0266,745,2019-05-15 16:11:22:863
1.0534,9.9982,0.5267,0.1383,0.2349,-0.0199,-0.0043,0.0277,0.0266,754,2019-05-15 16:11:22:872
1.0534,9.9982,0.5267,0.1258,0.2496,0.0028,-0.0053,0.0447,0.0245,764,2019-05-15 16:11:22:882
0.929,10.0796,0.5602,-0.0011,0.3312,0.0361,0.0021,0.0352,0.0224,774,2019-05-15 16:11:22:892
0.8284,10.0317,0.6608,-0.1028,0.2835,0.1364,-0.0032,0.016,0.017,784,2019-05-15 16:11:22:902
0.8284,10.0317,0.6608,-0.1028,0.2835,0.1364,-0.0064,-0.0309,0.0192,795,2019-05-15 16:11:22:913
1.0151,9.9838,0.6704,-0.067,0.2741,0.184,-0.0064,-0.0309,0.0192,804,2019-05-15 16:11:22:922
1.0151,9.9838,0.6704,0.2547,0.1978,-0.0158,0.0032,-0.0533,0.0288,815,2019-05-15 16:11:22:933
1.2641,9.9647,0.4214,0.2547,0.1978,-0.0158,0.0107,-0.033,0.0256,824,2019-05-15 16:11:22:942
1.2641,9.9647,0.4214,0.3238,0.2172,-0.1004,0.0085,0.0021,0.016,835,2019-05-15 16:11:22:953
0.996,9.8881,0.4501,0.056,0.1405,-0.0711,0.0021,0.0394,-0.0021,844,2019-05-15 16:11:22:962
0.996,9.8881,0.4501,-0.1108,0.1308,0.0628,0.0,0.0256,-0.0021,854,2019-05-15 16:11:22:972
0.7278,9.8114,0.6512,-0.1108,0.1308,0.0628,0.0,0.0256,0.0064,864,2019-05-15 16:11:22:982
0.7278,9.8114,0.6512,-0.1832,0.0926,0.1256,0.0011,-0.0256,0.0064,874,2019-05-15 16:11:22:992
0.929,9.8593,0.6512,-0.0124,0.1118,0.1309,0.0,-0.0554,0.0128,884,2019-05-15 16:11:23:002
0.929,9.8593,0.6512,0.1142,0.1934,0.0749,0.0053,-0.0522,0.0202,895,2019-05-15 16:11:23:013
1.1396,9.9695,0.4453,0.1142,0.1934,0.0749,0.0064,-0.0277,0.0149,904,2019-05-15 16:11:23:022
1.1396,9.9886,0.4022,0.1943,0.2414,-0.1156,0.0043,0.0011,0.0064,914,2019-05-15 16:11:23:032
1.1396,9.9886,0.4022,0.1943,0.2414,-0.1156,0.0043,0.0011,0.0064,924,2019-05-15 16:11:23:042
0.7853,9.9503,0.4884,0.0464,0.2557,-0.0627,0.0021,0.0298,-0.0021,935,2019-05-15 16:11:23:053
0.7853,9.9503,0.4884,-0.2685,0.1837,0.1,-0.0032,-0.0032,-0.0043,944,2019-05-15 16:11:23:062
0.7135,9.8976,0.589,-0.2685,0.1837,0.1,-0.0032,-0.0032,-0.0043,954,2019-05-15 16:11:23:072
0.8954,9.9311,0.6273,-0.2311,0.1503,0.0722,0.0053,-0.0575,0.0117,964,2019-05-15 16:11:23:082
0.8954,9.9311,0.6273,0.2022,0.1983,-0.0119,0.0096,-0.0639,0.0192,974,2019-05-15 16:11:23:092
1.2067,9.9742,0.5028,0.2592,0.2269,-0.0098,0.0107,-0.0373,0.0128,984,2019-05-15 16:11:23:102
1.2067,9.9742,0.5028,0.2592,0.2269,-0.0098,0.0117,0.0107,-0.0085,994,2019-05-15 16:11:23:112
1.0247,9.9264,0.5028,0.1698,0.2076,-0.0089,0.0096,0.0266,-0.0224,1004,2019-05-15 16:11:23:122
0.8236,9.912,0.565,-0.1187,0.1641,0.0543,0.0096,0.0266,-0.0224,1014,2019-05-15 16:11:23:132
0.8236,9.912,0.565,-0.2115,0.1589,0.0565,0.0128,0.0107,-0.0213,1024,2019-05-15 16:11:23:142
0.7422,9.9407,0.6321,-0.2115,0.1589,0.0565,0.0181,-0.0224,-0.0138,1035,2019-05-15 16:11:23:153
0.7422,9.9407,0.6321,-0.0617,0.2592,-0.0314,0.0181,-0.0224,-0.0138,1046,2019-05-15 16:11:23:164
1.0295,10.0317,0.4453,0.092,0.2828,-0.056,0.0256,-0.0469,-0.0021,1055,2019-05-15 16:11:23:173
1.0582,10.0126,0.3687,0.092,0.2828,-0.056,0.0245,-0.0181,-0.0064,1065,2019-05-15 16:11:23:183
1.0582,10.0126,0.3687,0.0504,0.2586,-0.1819,0.0256,0.0245,-0.0107,1075,2019-05-15 16:11:23:193
0.8763,10.0173,0.4262,-0.0584,0.2679,-0.0699,0.0256,0.0245,-0.0107,1084,2019-05-15 16:11:23:202
0.8763,10.0173,0.4262,-0.0584,0.2679,-0.0699,0.0202,0.032,-0.0085,1094,2019-05-15 16:11:23:212
0.7326,10.1275,0.5363,-0.1533,0.33,0.0286,0.0224,0.016,0.0021,1104,2019-05-15 16:11:23:222
0.747,10.0748,0.4741,-0.1881,0.3251,-0.0156,0.0256,-0.0107,0.0107,1114,2019-05-15 16:11:23:232
0.747,10.0748,0.4741,-0.1881,0.3251,-0.0156,0.0256,-0.0426,0.0266,1125,2019-05-15 16:11:23:243
1.0343,9.9359,0.34,-0.0242,0.2917,-0.0162,0.0234,-0.0437,0.0266,1134,2019-05-15 16:11:23:252
1.0343,9.9359,0.34,0.1727,0.1674,-0.227,0.0192,-0.0064,0.0192,1144,2019-05-15 16:11:23:262
1.1301,9.9311,0.3208,0.1727,0.1674,-0.227,0.016,0.0224,0.0128,1155,2019-05-15 16:11:23:273
1.1301,9.9311,0.3208,0.1043,0.1962,-0.1242,0.016,0.0224,0.0128,1164,2019-05-15 16:11:23:282
0.8619,10.0078,0.5124,-0.0831,0.2584,0.0364,0.0202,0.0415,0.0096,1174,2019-05-15 16:11:23:292
0.8619,10.0078,0.5124,-0.0831,0.2584,0.0364,0.0192,0.0309,0.0096,1185,2019-05-15 16:11:23:303
0.6895,10.0461,0.5555,-0.2569,0.2967,0.0821,0.0192,0.0309,0.0096,1195,2019-05-15 16:11:23:313
0.7997,9.9742,0.6081,-0.1488,0.2249,0.137,0.0192,-0.0256,0.0202,1204,2019-05-15 16:11:23:322
0.7997,9.9742,0.6081,-0.1488,0.2249,0.137,0.0245,-0.0426,0.0245,1214,2019-05-15 16:11:23:332
1.0678,9.912,0.4693,0.015,0.1772,-0.0262,0.0309,-0.0352,0.032,1224,2019-05-15 16:11:23:342
1.0678,9.912,0.4693,0.2109,0.1631,0.0808,0.033,-0.0043,0.0309,1235,2019-05-15 16:11:23:353
1.1013,10.0317,0.5459,0.2109,0.1631,0.0808,0.0384,0.0362,0.0245,1245,2019-05-15 16:11:23:363
1.1013,10.0317,0.5459,0.142,0.2828,0.0891,0.0511,0.0362,0.0192,1255,2019-05-15 16:11:23:373
0.723,9.9599,0.6991,-0.2385,0.2109,0.2489,0.0597,0.0149,0.0245,1264,2019-05-15 16:11:23:382
0.723,9.9599,0.6991,-0.2385,0.2109,0.2489,0.0597,0.0149,0.0245,1275,2019-05-15 16:11:23:393
0.8954,9.8881,0.7039,-0.1945,0.1821,0.3006,0.0671,-0.016,0.0384,1284,2019-05-15 16:11:23:402
0.8954,9.8881,0.7039,0.0549,0.1441,0.2822,0.082,-0.0362,0.0554,1295,2019-05-15 16:11:23:413
1.1492,9.9407,0.6416,0.0549,0.1441,0.2822,0.0937,-0.0202,0.0479,1304,2019-05-15 16:11:23:422
1.1061,9.9455,0.6416,0.1253,0.1968,0.2286,0.1023,0.0117,0.0447,1314,2019-05-15 16:11:23:432
1.1061,9.9455,0.6416,0.1253,0.1968,0.2286,0.1225,0.033,0.0384,1324,2019-05-15 16:11:23:442
0.8236,9.9838,0.6704,-0.1639,0.2349,0.2785,0.1374,0.0192,0.0394,1334,2019-05-15 16:11:23:452
0.8236,9.9838,0.6704,-0.1693,0.2155,0.3505,0.1502,0.0021,0.0469,1345,2019-05-15 16:11:23:463
0.8284,10.0365,0.8236,-0.1693,0.2155,0.3505,0.1502,0.0021,0.0469,1355,2019-05-15 16:11:23:473
0.8954,10.1754,0.8092,-0.1055,0.4262,0.4606,0.1843,-0.0075,0.0682,1364,2019-05-15 16:11:23:482
0.8954,10.1754,0.8092,-0.1055,0.4262,0.4606,0.2163,-0.0107,0.0948,1375,2019-05-15 16:11:23:493
0.8667,10.2424,0.6608,-0.1506,0.4936,0.3507,0.2344,0.0011,0.1129,1384,2019-05-15 16:11:23:502
0.8667,10.2424,0.6608,-0.1506,0.4936,0.3507,0.2344,0.0011,0.1129,1394,2019-05-15 16:11:23:512
0.8092,10.2185,0.5746,-0.1866,0.4656,0.3594,0.2514,0.0128,0.1364,1404,2019-05-15 16:11:23:522
0.8092,10.2185,0.5746,-0.3273,0.4956,0.2143,0.2802,-0.0011,0.1598,1414,2019-05-15 16:11:23:532
0.7853,10.2568,0.3735,-0.2936,0.5117,0.1736,0.2993,-0.0394,0.179,1425,2019-05-15 16:11:23:543
0.9098,10.2663,0.3735,-0.2936,0.5117,0.1736,0.3121,-0.0522,0.1939,1434,2019-05-15 16:11:23:552
0.9098,10.2663,0.3735,-0.0667,0.49,-0.0222,0.3121,-0.0522,0.1939,1444,2019-05-15 16:11:23:562
1.1779,10.1179,-0.0958,0.0442,0.3777,-0.21,0.3153,-0.0405,0.2056,1455,2019-05-15 16:11:23:573
1.3503,10.1179,-0.2586,0.0442,0.3777,-0.21,0.3121,0.0011,0.2099,1464,2019-05-15 16:11:23:582
1.3503,10.1179,-0.2586,0.1979,0.3796,-0.3453,0.3047,0.0234,0.2013,1475,2019-05-15 16:11:23:593
1.0534,10.1514,-0.0862,-0.1261,0.4161,-0.1324,0.3036,0.0053,0.1949,1485,2019-05-15 16:11:23:603
1.0534,10.1514,-0.0862,-0.1261,0.4161,-0.1324,0.3036,0.0053,0.1949,1495,2019-05-15 16:11:23:613
1.0104,9.9982,-0.0287,-0.2627,0.3426,0.1626,0.3079,-0.0405,0.2045,1505,2019-05-15 16:11:23:623
1.0104,9.9982,-0.0287,-0.1259,0.246,-0.1287,0.3356,-0.0309,0.2429,1515,2019-05-15 16:11:23:633
1.1013,10.0604,-0.158,-0.1693,0.3368,-0.0728,0.3452,-0.0043,0.2525,1525,2019-05-15 16:11:23:643
1.1013,10.0604,-0.158,-0.1693,0.3368,-0.0728,0.3654,0.0117,0.2418,1534,2019-05-15 16:11:23:652
1.2833,9.9503,-0.4166,-0.0195,0.2315,-0.2827,0.3707,0.0256,0.2322,1545,2019-05-15 16:11:23:663
1.2833,9.9503,-0.4166,-0.0964,0.2123,-0.1332,0.3835,0.0565,0.2152,1554,2019-05-15 16:11:23:672
1.0056,9.8497,-0.1963,-0.0964,0.2123,-0.1332,0.3835,0.0565,0.2152,1565,2019-05-15 16:11:23:683
0.8715,9.8258,-0.0718,-0.4869,0.1166,0.1644,0.4219,0.0991,0.1981,1575,2019-05-15 16:11:23:693
0.8715,9.8258,-0.0718,-0.4869,0.1166,0.1644,0.4559,0.114,0.2003,1584,2019-05-15 16:11:23:702
0.7039,9.9742,0.1197,-0.6303,0.242,0.452,0.4559,0.114,0.2003,1594,2019-05-15 16:11:23:712
0.7326,9.9742,-0.0335,-0.7045,0.2754,0.4658,0.5348,0.1619,0.2258,1604,2019-05-15 16:11:23:722
0.7326,9.9742,-0.0335,-0.7273,0.3785,0.3391,0.6264,0.2535,0.2759,1614,2019-05-15 16:11:23:732
0.7997,10.0317,-0.1915,-0.7273,0.3785,0.3391,0.6264,0.2535,0.2759,1624,2019-05-15 16:11:23:742
0.7949,9.9695,-0.2921,-0.7103,0.2944,0.2538,0.6946,0.2866,0.3015,1635,2019-05-15 16:11:23:753
0.7949,9.9695,-0.2921,-0.7103,0.2944,0.2538,0.6946,0.2866,0.3015,1644,2019-05-15 16:11:23:762
0.7614,10.0317,-0.7805,-0.7952,0.2791,0.0801,0.7468,0.293,0.3015,1654,2019-05-15 16:11:23:772
0.8811,10.0652,-1.154,-0.715,0.4184,-0.4051,0.7798,0.3196,0.2802,1664,2019-05-15 16:11:23:782
0.8811,10.0652,-1.154,-0.715,0.4184,-0.4051,0.7809,0.3963,0.2663,1674,2019-05-15 16:11:23:792
1.1875,9.8928,-1.7621,-0.4667,0.2676,-0.8747,0.7755,0.4421,0.261,1686,2019-05-15 16:11:23:804
1.1875,9.8928,-1.7621,-0.4667,0.2676,-0.8747,0.7755,0.4421,0.261,1694,2019-05-15 16:11:23:812
1.1061,9.6199,-2.897,-0.5528,0.1217,-1.1793,0.7532,0.4751,0.2535,1704,2019-05-15 16:11:23:822
1.1061,9.6199,-2.897,-0.5528,0.1217,-1.1793,0.6711,0.4922,0.2386,1714,2019-05-15 16:11:23:832
1.1923,9.7061,-4.2425,-0.616,0.0924,-2.455,0.5273,0.5369,0.2141,1725,2019-05-15 16:11:23:843
1.2929,9.6055,-5.1619,-0.5012,0.0346,-4.0006,0.3899,0.587,0.1918,1735,2019-05-15 16:11:23:853
1.2929,9.6055,-5.1619,-0.5012,0.0346,-4.0006,0.3899,0.587,0.1918,1745,2019-05-15 16:11:23:863
1.403,9.7109,-6.0573,-0.5279,0.0111,-4.5829,0.2099,0.669,0.1662,1755,2019-05-15 16:11:23:873
1.403,9.7109,-6.0573,-0.2845,0.2982,-4.8531,-0.0629,0.7819,0.1374,1765,2019-05-15 16:11:23:883
1.834,9.8976,-5.9855,-0.0627,0.3409,-4.8712,-0.3334,0.75,0.1268,1774,2019-05-15 16:11:23:892
2.2027,9.7731,-6.4069,-0.0627,0.3409,-4.8712,-0.5476,0.6775,0.0916,1784,2019-05-15 16:11:23:902
2.2027,9.7731,-6.4069,0.7994,0.2198,-6.152,-0.5476,0.6775,0.0916,1794,2019-05-15 16:11:23:912
3.3279,9.8067,-8.0014,1.4005,0.2358,-7.0774,-0.9194,0.5337,-0.0021,1804,2019-05-15 16:11:23:922
3.3279,9.8067,-8.0014,2.0402,0.1462,-7.7392,-1.3732,0.4602,-0.147,1814,2019-05-15 16:11:23:932
4.2234,9.5481,-8.7771,2.0402,0.1462,-7.7392,-1.6938,0.4975,-0.261,1825,2019-05-15 16:11:23:943
4.2234,9.5481,-8.7771,2.2127,-0.2649,-7.8856,-1.6938,0.4975,-0.261,1834,2019-05-15 16:11:23:952
3.5674,9.074,-7.8147,2.2127,-0.2649,-7.8856,-2.0219,0.5891,-0.3814,1845,2019-05-15 16:11:23:963
3.5674,9.074,-7.8147,1.7396,-0.5597,-7.6674,-2.3415,0.6914,-0.4804,1854,2019-05-15 16:11:23:972
2.0877,8.3989,-7.1539,1.7396,-0.5597,-7.6674,-2.7879,0.8586,-0.603,1864,2019-05-15 16:11:23:982
2.0877,8.3989,-7.1539,0.3739,-1.2485,-7.5569,-3.0808,0.9343,-0.6786,1875,2019-05-15 16:11:23:993
1.0822,7.9248,-5.6599,-0.5205,-1.7087,-6.553,-3.3599,0.9353,-0.7276,1884,2019-05-15 16:11:24:002
1.0822,7.9248,-5.6599,-0.5205,-1.7087,-6.553,-3.3599,0.9353,-0.7276,1894,2019-05-15 16:11:24:012
0.7374,7.3646,-4.2425,-0.6265,-1.8298,-6.2466,-3.6966,0.7681,-0.6584,1905,2019-05-15 16:11:24:023
0.7374,7.3646,-4.2425,-0.6265,-1.8298,-6.2466,-3.6966,0.7681,-0.6584,1914,2019-05-15 16:11:24:032
0.7087,6.4404,-2.8683,-0.6801,-2.5397,-5.7854,-4.1046,0.6349,-0.44,1924,2019-05-15 16:11:24:042
0.7087,6.4404,-2.8683,-0.5625,-3.2932,-5.1784,-4.3741,0.6051,-0.327,1934,2019-05-15 16:11:24:052
0.6704,5.7174,-1.47,-0.5625,-3.2932,-5.1784,-4.3741,0.6051,-0.327,1944,2019-05-15 16:11:24:062
0.4693,5.2481,-0.5219,-0.5518,-3.3808,-4.9198,-4.6276,0.6552,-0.2695,1955,2019-05-15 16:11:24:073
0.4693,5.2481,-0.5219,-0.5518,-3.3808,-4.9198,-4.6276,0.6552,-0.2695,1964,2019-05-15 16:11:24:082
0.4788,4.0749,0.9912,-0.7005,-4.1322,-4.0268,-4.8982,0.5721,-0.2237,1974,2019-05-15 16:11:24:092
0.5794,3.395,1.8052,-0.4913,-4.9897,-3.1668,-5.0697,0.4751,-0.1949,1984,2019-05-15 16:11:24:102
0.5794,3.395,1.8052,-0.655,-5.4608,-2.3162,-5.2104,0.5284,-0.1704,1995,2019-05-15 16:11:24:113
0.1006,1.4413,4.8698,-0.655,-5.4608,-2.3162,-5.2477,0.554,-0.1513,2005,2019-05-15 16:11:24:123
0.1006,1.4413,4.8698,-0.8569,-6.9975,0.359,-5.1955,0.4804,-0.1289,2015,2019-05-15 16:11:24:133
0.2825,-0.2251,7.9248,-0.6069,-7.2442,1.1342,-5.1955,0.4804,-0.1289,2025,2019-05-15 16:11:24:143
0.589,-0.6081,8.6335,-0.6069,-7.2442,1.1342,-4.9728,0.3313,-0.1023,2035,2019-05-15 16:11:24:153
0.589,-0.6081,8.6335,-0.0662,-7.2953,1.7942,-4.7246,0.4346,-0.1182,2045,2019-05-15 16:11:24:163
0.7374,-0.6416,9.5289,-0.0353,-6.6218,1.7952,-4.5712,0.5699,-0.1481,2055,2019-05-15 16:11:24:173
0.7374,-0.6416,9.5289,-0.4288,-6.0904,2.1448,-4.4071,0.5774,-0.1928,2065,2019-05-15 16:11:24:183
-0.2634,-0.34,10.7356,-0.4288,-6.0904,2.1448,-4.2527,0.44,-0.2408,2075,2019-05-15 16:11:24:193
-0.2634,-0.34,10.7356,-1.1993,-5.3838,3.157,-4.0886,0.2077,-0.2759,2084,2019-05-15 16:11:24:202
-0.4405,-0.3783,11.9423,-1.0551,-4.9844,3.3065,-4.0886,0.2077,-0.2759,2094,2019-05-15 16:11:24:212
-0.4405,-0.3783,11.9423,-1.0551,-4.9844,3.3065,-3.8255,-0.1726,-0.2589,2105,2019-05-15 16:11:24:223
0.3783,-0.3304,12.1913,-0.2548,-4.4511,3.3149,-3.6699,-0.343,-0.2163,2114,2019-05-15 16:11:24:232
1.0918,-0.3304,11.8609,0.4296,-4.1271,2.8433,-3.5112,-0.4091,-0.1822,2125,2019-05-15 16:11:24:243
1.0918,-0.3304,11.8609,0.4296,-4.1271,2.8433,-3.5112,-0.4091,-0.1822,2134,2019-05-15 16:11:24:252
1.7382,-0.3065,11.8082,0.9162,-3.7024,2.7451,-3.3141,-0.3366,-0.1864,2144,2019-05-15 16:11:24:262
1.8531,-0.3208,11.7699,1.1288,-3.223,2.4306,-3.132,-0.1758,-0.2397,2154,2019-05-15 16:11:24:272
1.8531,-0.3208,11.7699,1.0107,-2.803,3.188,-2.9477,-0.0767,-0.2717,2164,2019-05-15 16:11:24:282
1.4748,-0.7853,13.2735,1.0107,-2.803,3.188,-2.9477,-0.0767,-0.2717,2174,2019-05-15 16:11:24:292
1.4748,-0.7853,13.2735,0.6413,-3.2676,4.2868,-2.7272,-0.0309,-0.2919,2184,2019-05-15 16:11:24:302
1.3551,-1.5083,13.7667,0.6413,-3.2676,4.2868,-2.5258,-0.082,-0.3164,2194,2019-05-15 16:11:24:312
1.3551,-1.5083,13.7667,0.8509,-3.1712,3.8106,-2.3042,-0.0437,-0.3366,2204,2019-05-15 16:11:24:322
1.6951,-1.2785,13.1394,0.8509,-3.1712,3.8106,-2.3042,-0.0437,-0.3366,2214,2019-05-15 16:11:24:332
1.6233,-0.8236,12.6174,0.9863,-2.5957,3.4475,-2.0368,0.1023,-0.3739,2224,2019-05-15 16:11:24:342
1.6233,-0.8236,12.6174,0.6972,-1.3008,2.6941,-1.8387,0.1832,-0.4187,2235,2019-05-15 16:11:24:353
0.8428,-0.1053,12.3349,0.6972,-1.3008,2.6941,-1.7609,0.0874,-0.4634,2244,2019-05-15 16:11:24:362
0.5459,-0.2059,12.4546,-0.1114,-0.9201,2.6961,-1.6768,-0.0309,-0.5124,2254,2019-05-15 16:11:24:372
0.5459,-0.2059,12.4546,-0.4119,-1.0226,3.0664,-1.5511,-0.2216,-0.5135,2264,2019-05-15 16:11:24:382
0.1628,-1.0487,13.1729,-0.4119,-1.0226,3.0664,-1.5511,-0.2216,-0.5135,2274,2019-05-15 16:11:24:392
0.1628,-1.0487,13.1729,-0.5863,-1.6392,3.6216,-1.3348,-0.3153,-0.4133,2284,2019-05-15 16:11:24:402
0.0958,-1.4317,13.3166,-0.6686,-1.5476,3.5404,-1.175,-0.3398,-0.3175,2295,2019-05-15 16:11:24:413
0.1245,-1.1827,12.9718,-0.6686,-1.5476,3.5404,-1.0131,-0.3654,-0.2173,2305,2019-05-15 16:11:24:423
0.1245,-1.1827,12.9718,-0.4942,-0.8312,2.644,-0.8416,-0.3782,-0.1012,2315,2019-05-15 16:11:24:433
0.8284,-0.5363,11.995,-0.0453,-0.3977,2.2283,-0.8416,-0.3782,-0.1012,2324,2019-05-15 16:11:24:442
0.8284,-0.5363,11.995,-0.0453,-0.3977,2.2283,-0.7233,-0.3579,-0.0352,2334,2019-05-15 16:11:24:452
0.8284,-0.5363,11.995,-0.0453,-0.3977,2.2283,-0.7233,-0.3579,-0.0352,2344,2019-05-15 16:11:24:462
1.3743,-0.9864,11.6837,0.4514,-0.7503,1.9234,-0.6211,-0.3121,-0.0138,2355,2019-05-15 16:11:24:473
1.3743,-0.9864,11.6837,0.4514,-0.7503,1.9234,-0.6211,-0.3121,-0.0138,2364,2019-05-15 16:11:24:482
0.5555,-0.6847,12.0285,-0.1076,-0.6279,2.0737,-0.3739,-0.065,-0.0096,2374,2019-05-15 16:11:24:492
0.5555,-0.6847,12.0285,-0.5912,0.0523,2.3106,-0.2685,-0.0629,0.0298,2384,2019-05-15 16:11:24:502
0.498,-0.1915,11.9662,-0.5912,0.0523,2.3106,-0.2109,-0.0895,0.0671,2394,2019-05-15 16:11:24:512
0.498,-0.1915,11.9662,-0.3552,0.1494,1.9056,-0.1715,-0.1427,0.0948,2404,2019-05-15 16:11:24:522
0.8045,-0.2251,11.4251,-0.2185,0.1296,1.6784,-0.1204,-0.2035,0.0767,2415,2019-05-15 16:11:24:533
0.9337,-0.182,11.4012,-0.2185,0.1296,1.6784,-0.0874,-0.228,0.049,2424,2019-05-15 16:11:24:542
0.9337,-0.182,11.4012,0.093,0.2282,1.7488,-0.0384,-0.2333,0.033,2435,2019-05-15 16:11:24:553
1.3791,-0.1053,11.6023,0.2905,0.2263,1.8619,-0.0384,-0.2333,0.033,2445,2019-05-15 16:11:24:563
1.6376,-0.1293,11.6502,0.2905,0.2263,1.8619,0.0341,-0.2024,0.0447,2454,2019-05-15 16:11:24:572
1.6376,-0.1293,11.6502,0.6909,0.0188,2.0124,0.0341,-0.2024,0.0447,2464,2019-05-15 16:11:24:582
1.7238,-0.431,11.789,0.5961,-0.1488,2.0515,0.1087,-0.1364,0.0458,2474,2019-05-15 16:11:24:592
1.7238,-0.431,11.789,0.363,-0.2766,2.2866,0.1949,-0.0959,0.0202,2484,2019-05-15 16:11:24:602
1.3216,-0.5411,12.3062,0.363,-0.2766,2.2866,0.261,-0.1012,0.0213,2494,2019-05-15 16:11:24:612
1.1827,-0.5938,12.3924,0.0272,-0.4103,2.6558,0.3452,-0.1087,0.0469,2504,2019-05-15 16:11:24:622
1.1827,-0.5938,12.3924,0.0272,-0.4103,2.6558,0.3452,-0.1087,0.0469,2514,2019-05-15 16:11:24:632
1.2929,-0.9864,13.2591,0.0072,-0.6681,3.1162,0.4911,-0.1055,0.1129,2525,2019-05-15 16:11:24:643
1.2929,-0.9864,13.2591,0.4128,-1.0923,3.5814,0.702,-0.0575,0.1939,2535,2019-05-15 16:11:24:653
1.8244,-1.154,13.1681,0.6407,-1.2072,3.4333,0.848,-0.0064,0.2386,2545,2019-05-15 16:11:24:663
1.8244,-1.154,13.1681,0.7045,-1.3081,3.3816,0.9822,0.0479,0.2589,2555,2019-05-15 16:11:24:673
1.8723,-0.9912,13.3453,0.7045,-1.3081,3.3816,1.1697,0.0565,0.2535,2565,2019-05-15 16:11:24:683
1.8723,-0.9912,13.3453,0.6595,-1.3401,4.1515,1.1697,0.0565,0.2535,2574,2019-05-15 16:11:24:692
1.9249,-1.3599,14.4131,0.7659,-1.923,4.6915,1.4243,0.082,0.2344,2584,2019-05-15 16:11:24:702
1.9249,-1.3599,14.4131,0.7659,-1.923,4.6915,1.6246,0.1268,0.244,2594,2019-05-15 16:11:24:712
1.7382,-1.9632,14.5184,0.5988,-2.7721,4.8118,1.8526,0.1822,0.2525,2604,2019-05-15 16:11:24:722
1.7382,-1.9632,14.5184,0.5988,-2.7721,4.8118,1.8526,0.1822,0.2525,2614,2019-05-15 16:11:24:732
1.9393,-2.0016,13.805,0.7458,-3.1698,4.6747,2.1977,0.2759,0.2674,2624,2019-05-15 16:11:24:742
1.9393,-2.0016,13.805,0.7937,-3.3216,4.0434,2.4768,0.293,0.2621,2634,2019-05-15 16:11:24:752
1.6233,-1.4365,13.6278,0.7937,-3.3216,4.0434,2.6643,0.3622,0.2258,2644,2019-05-15 16:11:24:762
1.6233,-1.4365,13.6278,0.1472,-3.1649,3.5745,2.8603,0.3803,0.1928,2654,2019-05-15 16:11:24:772
0.8859,-0.8619,13.0197,-0.074,-3.2425,3.5549,3.0137,0.343,0.1641,2664,2019-05-15 16:11:24:782
0.8859,-0.8619,13.0197,-0.074,-3.2425,3.5549,3.1629,0.2312,0.1715,2675,2019-05-15 16:11:24:793
0.6177,-0.7183,11.6358,-0.3164,-3.5421,2.2911,3.279,0.1087,0.1768,2685,2019-05-15 16:11:24:803
0.5076,-0.4549,11.2001,-0.4237,-3.5885,1.9543,3.279,0.1087,0.1768,2694,2019-05-15 16:11:24:812
0.5076,-0.4549,11.2001,-0.5968,-3.6662,1.6836,3.4335,-0.0447,0.1726,2705,2019-05-15 16:11:24:823
0.249,0.5602,10.6542,-0.5968,-3.6662,1.6836,3.5368,-0.2418,0.1491,2715,2019-05-15 16:11:24:833
0.0958,1.1444,10.4483,-0.5968,-3.6662,1.6836,3.5368,-0.2418,0.1353,2724,2019-05-15 16:11:24:842
0.0958,1.1444,10.4483,-0.8914,-2.9312,1.5835,3.5634,-0.3079,0.1353,2734,2019-05-15 16:11:24:852
0.2107,1.6855,9.5193,-0.8706,-3.0163,0.9815,3.6412,-0.5944,0.0852,2744,2019-05-15 16:11:24:862
0.2107,1.6855,9.5193,-0.6155,-3.536,0.4194,3.6934,-0.7031,0.0703,2755,2019-05-15 16:11:24:873
0.905,1.6568,7.8482,-0.6155,-3.536,0.4194,3.6934,-0.7031,0.0703,2764,2019-05-15 16:11:24:882
1.3886,1.7238,7.015,-0.6155,-3.536,0.4194,3.6934,-0.7031,0.0703,2775,2019-05-15 16:11:24:893
1.3886,1.7238,7.015,0.1222,-3.8959,-0.9213,3.7307,-0.7414,0.032,2785,2019-05-15 16:11:24:903
1.7286,2.5187,5.7269,0.3562,-3.6722,-1.7537,3.7541,-0.7169,-0.081,2795,2019-05-15 16:11:24:913
1.7286,2.5187,5.7269,0.3562,-3.6722,-1.7537,3.7541,-0.7169,-0.081,2805,2019-05-15 16:11:24:923
1.494,3.7302,5.1044,0.269,-3.4724,-1.782,3.7136,-0.6552,-0.1875,2815,2019-05-15 16:11:24:933
1.494,3.7302,5.1044,-0.1714,-2.8937,-1.9191,3.622,-0.5827,-0.3025,2825,2019-05-15 16:11:24:943
1.2737,4.5011,4.7836,-0.2203,-2.8432,-1.5409,3.5624,-0.6189,-0.3356,2834,2019-05-15 16:11:24:952
1.1492,4.3574,4.7262,-0.2203,-2.8432,-1.5409,3.5624,-0.6189,-0.3356,2845,2019-05-15 16:11:24:963
1.1253,4.0701,4.2904,-0.3846,-3.6045,-1.6249,3.5144,-0.62,-0.3846,2854,2019-05-15 16:11:24:972
1.1253,4.0701,4.2904,-0.3846,-3.6045,-1.6249,3.5144,-0.62,-0.3846,2864,2019-05-15 16:11:24:982
1.3216,4.8411,2.7198,-0.1944,-3.2391,-2.6265,3.4654,-0.6584,-0.4251,2875,2019-05-15 16:11:24:993
1.3216,4.8411,2.7198,-0.0708,-2.5978,-3.0899,3.4185,-0.6711,-0.4464,2884,2019-05-15 16:11:25:002
1.6472,6.6894,1.3408,-0.0708,-2.5978,-3.0899,3.3227,-0.5955,-0.4591,2895,2019-05-15 16:11:25:013
1.6903,7.1682,0.68,0.1995,-1.4235,-3.8067,3.2002,-0.4591,-0.4677,2904,2019-05-15 16:11:25:022
1.6903,7.1682,0.68,0.1995,-1.4235,-3.8067,2.9956,-0.2365,-0.4655,2915,2019-05-15 16:11:25:033
1.1971,6.8235,1.5131,-0.2354,-2.0379,-2.4358,2.9093,-0.1289,-0.4549,2925,2019-05-15 16:11:25:043
1.1971,6.8235,1.5131,-0.4456,-2.5428,-2.2814,2.8326,-0.098,-0.4357,2934,2019-05-15 16:11:25:052
0.8092,6.7756,1.2881,-0.4456,-2.5428,-2.2814,2.8326,-0.098,-0.4357,2944,2019-05-15 16:11:25:062
0.8092,6.7756,1.2881,-0.6502,-1.7999,-2.5587,2.6984,-0.1555,-0.3984,2954,2019-05-15 16:11:25:072
0.6608,8.0637,-0.3496,-0.6261,-1.2392,-3.1727,2.5993,-0.1641,-0.3665,2965,2019-05-15 16:11:25:083
0.6321,8.667,-0.8284,-0.6261,-1.2392,-3.1727,2.4853,-0.1438,-0.3185,2975,2019-05-15 16:11:25:093
0.6321,8.667,-0.8284,-0.4415,-0.4883,-3.3782,2.2915,-0.0863,-0.2503,2985,2019-05-15 16:11:25:103
0.9864,8.8442,-0.5267,-0.243,-0.6171,-2.7948,2.2915,-0.0863,-0.2503,2995,2019-05-15 16:11:25:113
0.9864,8.8442,-0.5267,-0.1593,-1.1038,-2.1678,2.1231,0.0021,-0.2216,3004,2019-05-15 16:11:25:122
0.7901,8.0637,0.1389,-0.1593,-1.1038,-2.1678,1.9942,0.0394,-0.2035,3014,2019-05-15 16:11:25:132
0.4549,8.0397,0.1101,-0.7119,-1.5528,-1.561,1.9282,0.0128,-0.1736,3024,2019-05-15 16:11:25:142
0.4549,8.0397,0.1101,-0.7119,-1.5528,-1.561,1.9282,0.0128,-0.1736,3034,2019-05-15 16:11:25:152
0.4549,8.0397,0.1101,-0.7119,-1.5528,-1.561,1.9282,0.0128,-0.1736,3044,2019-05-15 16:11:25:162
0.5076,8.5856,0.0527,-0.6447,-1.0372,-1.4455,1.7055,-0.2503,-0.017,3055,2019-05-15 16:11:25:173
0.5076,8.5856,0.0527,-0.6015,0.083,-2.3545,1.7055,-0.2503,-0.017,3065,2019-05-15 16:11:25:183
0.565,9.8641,-1.8627,-0.5734,0.1571,-2.6682,1.6097,-0.2844,-0.0138,3074,2019-05-15 16:11:25:192
0.565,9.8641,-1.8627,-0.5734,0.1571,-2.6682,1.6097,-0.2844,-0.0138,3084,2019-05-15 16:11:25:202
0.8715,9.6726,-2.3128,-0.2606,-0.055,-2.8254,1.4073,-0.359,-0.081,3094,2019-05-15 16:11:25:212
0.8715,9.6726,-2.3128,0.1298,-0.0073,-2.7406,1.3007,-0.3814,-0.0991,3104,2019-05-15 16:11:25:222
1.4653,9.8545,-2.2984,0.1298,-0.0073,-2.7406,1.1772,-0.3792,-0.1225,3115,2019-05-15 16:11:25:233
1.4605,10.0844,-2.1883,0.3569,0.341,-2.3284,1.1772,-0.3792,-0.1225,3125,2019-05-15 16:11:25:243
0.8859,10.3046,-2.6145,0.0421,0.491,-2.2483,0.9428,-0.2738,-0.1577,3134,2019-05-15 16:11:25:252
0.8859,10.3046,-2.6145,0.0421,0.491,-2.2483,0.9428,-0.2738,-0.1577,3144,2019-05-15 16:11:25:262
0.8859,10.3046,-2.6145,-0.3262,0.6615,-2.638,0.7734,-0.2727,-0.179,3154,2019-05-15 16:11:25:272
0.7757,10.3477,-3.1556,-0.3262,0.6615,-2.638,0.7734,-0.2727,-0.179,3165,2019-05-15 16:11:25:283
0.8667,10.4435,-3.1556,-0.1553,0.6946,-2.866,0.5966,-0.229,-0.1832,3175,2019-05-15 16:11:25:293
0.8667,10.4435,-3.1556,-0.1551,0.6989,-2.8281,0.441,-0.1225,-0.1662,3184,2019-05-15 16:11:25:302
0.6608,10.5536,-3.1077,-0.1551,0.6989,-2.8281,0.3388,-0.0575,-0.1566,3195,2019-05-15 16:11:25:313
0.6608,10.5536,-3.1077,-0.5097,0.937,-2.562,0.2376,-0.0682,-0.1513,3205,2019-05-15 16:11:25:323
0.3065,10.7117,-2.6671,-0.6538,0.9591,-2.2995,0.2376,-0.0682,-0.1513,3215,2019-05-15 16:11:25:333
0.7566,10.5536,-2.0877,-0.1857,0.7987,-1.7351,0.098,-0.1502,-0.1491,3224,2019-05-15 16:11:25:342
0.7566,10.5536,-2.0877,-0.1857,0.7987,-1.7351,0.0043,-0.2333,-0.1182,3235,2019-05-15 16:11:25:353
1.0918,10.635,-2.0877,0.1591,0.8787,-1.7497,0.0043,-0.2333,-0.1182,3245,2019-05-15 16:11:25:363
1.0918,10.635,-2.0877,0.3488,0.9052,-1.7318,-0.0724,-0.1683,-0.1001,3255,2019-05-15 16:11:25:373
1.1205,10.5824,-1.8914,0.3488,0.9052,-1.7318,-0.1161,-0.0692,-0.1023,3264,2019-05-15 16:11:25:382
0.7997,10.568,-1.6855,-0.1081,0.8072,-1.4166,-0.1641,0.0245,-0.114,3274,2019-05-15 16:11:25:392
0.7997,10.568,-1.6855,-0.3334,0.6945,-0.9513,-0.2024,0.0767,-0.1225,3284,2019-05-15 16:11:25:402
0.3926,10.386,-0.8523,-0.3334,0.6945,-0.9513,-0.2322,0.016,-0.1044,3294,2019-05-15 16:11:25:412
0.3926,10.386,-0.8523,-0.4595,0.587,-0.3878,-0.2322,0.016,-0.1044,3304,2019-05-15 16:11:25:422
0.4645,10.2759,-0.5315,-0.4053,0.5087,-0.4065,-0.2354,-0.0543,-0.0906,3315,2019-05-15 16:11:25:433
0.6991,10.2376,-0.5986,-0.165,0.4696,-0.5037,-0.2386,-0.0948,-0.0756,3324,2019-05-15 16:11:25:442
0.6991,10.2376,-0.5986,0.0795,0.3923,-0.5571,-0.2333,-0.081,-0.065,3334,2019-05-15 16:11:25:452
0.8763,9.9886,-0.5459,0.0795,0.3923,-0.5571,-0.2333,-0.081,-0.065,3344,2019-05-15 16:11:25:462
0.8763,9.9886,-0.5459,-0.0702,0.2094,-0.388,-0.2503,-0.0032,-0.0671,3354,2019-05-15 16:11:25:472
0.6033,10.003,-0.182,-0.2409,0.2328,-0.2086,-0.2535,0.0107,-0.0586,3364,2019-05-15 16:11:25:482
0.723,9.845,0.0431,-0.1161,0.0745,-0.028,-0.2482,0.017,-0.049,3375,2019-05-15 16:11:25:493
0.723,9.845,0.0431,-0.1161,0.0745,-0.028,-0.2386,0.0415,-0.0469,3384,2019-05-15 16:11:25:502
0.723,9.845,0.0431,-0.0716,0.0409,-0.0224,-0.2354,0.0405,-0.0575,3394,2019-05-15 16:11:25:512
0.5411,9.9024,0.3783,-0.2893,0.1318,0.2514,-0.229,0.0224,-0.0629,3405,2019-05-15 16:11:25:523
0.5411,9.9024,0.3783,-0.2893,0.1318,0.2514,-0.229,0.0224,-0.0629,3415,2019-05-15 16:11:25:533
0.3543,10.0173,0.4693,-0.4643,0.2465,0.2962,-0.1832,-0.0682,-0.065,3425,2019-05-15 16:11:25:543
0.3543,10.0173,0.4693,-0.2351,0.1461,0.0321,-0.1619,-0.0618,-0.0245,3435,2019-05-15 16:11:25:553
0.8906,9.912,0.2155,-0.2351,0.1461,0.0321,-0.1566,-0.0341,-0.017,3444,2019-05-15 16:11:25:562
0.8906,9.912,0.2155,0.0919,0.1131,0.1578,-0.1449,0.065,-0.0202,3455,2019-05-15 16:11:25:573
0.7709,9.8833,0.4405,-0.0405,0.1134,0.193,-0.1449,0.065,-0.0202,3465,2019-05-15 16:11:25:583
0.5171,9.9168,0.5363,-0.2916,0.1471,0.2734,-0.1161,0.081,-0.0341,3475,2019-05-15 16:11:25:593
0.5171,9.9168,0.5363,-0.2916,0.1471,0.2734,-0.0906,0.0511,-0.0224,3484,2019-05-15 16:11:25:602
0.5171,9.9886,0.3687,-0.2873,0.2193,0.0806,-0.0906,0.0511,-0.0224,3494,2019-05-15 16:11:25:612
0.8092,9.9024,0.4357,0.0041,0.1334,0.1374,-0.0788,0.0234,-0.0011,3504,2019-05-15 16:11:25:622
0.8092,9.9024,0.4357,0.0041,0.1334,0.1374,-0.0692,0.0234,0.0138,3515,2019-05-15 16:11:25:633
0.8332,9.912,0.407,0.0253,0.1438,0.0903,-0.0501,0.0128,-0.0021,3524,2019-05-15 16:11:25:642
0.5507,10.0844,0.3783,-0.2567,0.3166,0.0481,-0.0447,0.0075,-0.0043,3535,2019-05-15 16:11:25:653
0.5507,10.0844,0.3783,-0.2567,0.3166,0.0481,-0.0447,0.0075,-0.0043,3544,2019-05-15 16:11:25:662
0.656,10.0556,0.3591,-0.1524,0.2882,0.0229,-0.0405,0.0043,0.0149,3554,2019-05-15 16:11:25:672
0.656,10.0556,0.3591,0.0287,0.174,0.0383,-0.0362,0.0011,0.0437,3565,2019-05-15 16:11:25:683
0.9481,9.9264,0.3208,0.2139,0.1125,-0.1266,-0.0266,0.0096,0.0373,3574,2019-05-15 16:11:25:692
0.9481,9.9264,0.3208,0.2139,0.1125,-0.1266,-0.0266,0.0096,0.0373,3585,2019-05-15 16:11:25:703
1.0295,9.9982,0.1628,0.205,0.2328,-0.1952,-0.0266,0.016,0.0266,3594,2019-05-15 16:11:25:712
0.9577,10.0652,0.1437,0.1296,0.3004,-0.2205,-0.0256,0.0107,0.0213,3604,2019-05-15 16:11:25:722
1.0199,9.9407,0.4022,0.1296,0.3004,-0.2205,-0.0298,0.0085,0.0245,3615,2019-05-15 16:11:25:733
1.0199,9.9407,0.4022,0.1878,0.1765,0.0318,-0.0298,-0.0043,0.0256,3624,2019-05-15 16:11:25:742
1.0534,9.8258,0.6225,0.1878,0.1765,0.0318,-0.0298,-0.0043,0.0256,3634,2019-05-15 16:11:25:752
0.9816,9.8019,0.6895,0.2187,0.0619,0.2489,-0.016,-0.0266,0.0224,3644,2019-05-15 16:11:25:762
0.9816,9.8019,0.6895,0.1432,0.0383,0.3152,0.0234,-0.049,0.0117,3655,2019-05-15 16:11:25:773
1.0439,9.9599,0.3448,0.1432,0.0383,0.3152,0.0384,-0.0575,0.0075,3664,2019-05-15 16:11:25:782
1.0439,9.9599,0.3448,0.2027,0.1963,-0.0241,0.0384,-0.0575,0.0075,3674,2019-05-15 16:11:25:792
1.0534,9.9886,0.1915,0.2027,0.1963,-0.0241,0.0458,-0.0511,-0.0011,3684,2019-05-15 16:11:25:802
0.8763,9.9359,0.2825,0.237,0.2151,-0.179,0.0511,-0.0352,-0.017,3694,2019-05-15 16:11:25:812
0.8763,9.9359,0.2825,0.0375,0.1718,-0.0746,0.0458,-0.0575,-0.0224,3704,2019-05-15 16:11:25:822
0.8045,9.9838,0.0144,0.0375,0.1718,-0.0746,0.0501,-0.1044,-0.017,3714,2019-05-15 16:11:25:832
0.8045,9.9838,0.0144,-0.0322,0.2191,-0.3332,0.0511,-0.1289,-0.0128,3724,2019-05-15 16:11:25:842
0.8045,9.9838,0.0144,-0.0322,0.2191,-0.3332,0.0511,-0.1289,-0.0128,3734,2019-05-15 16:11:25:852
0.9481,10.1706,-0.182,0.1118,0.4056,-0.5223,0.0415,-0.1321,-0.0085,3745,2019-05-15 16:11:25:863
0.9481,10.1706,-0.182,0.2132,0.4245,-0.574,0.033,-0.0746,-0.0149,3755,2019-05-15 16:11:25:873
1.0199,10.1275,-0.1724,0.2132,0.4245,-0.574,0.0138,-0.0352,-0.0266,3764,2019-05-15 16:11:25:882
0.7183,9.9886,0.0622,0.0636,0.2612,-0.36,0.0117,-0.0277,-0.0309,3774,2019-05-15 16:11:25:892
0.7183,9.9886,0.0622,0.0636,0.2612,-0.36,0.0117,-0.0277,-0.0309,3784,2019-05-15 16:11:25:902
0.6225,9.9599,0.0958,-0.2058,0.1938,-0.2332,0.0213,-0.049,-0.0266,3794,2019-05-15 16:11:25:912
0.8332,10.1514,0.0718,-0.1315,0.2892,-0.2863,0.0298,-0.0852,-0.0202,3804,2019-05-15 16:11:25:922
0.8332,10.1514,0.0718,-0.0527,0.3942,-0.3859,0.0341,-0.1087,-0.0202,3814,2019-05-15 16:11:25:932
0.8332,10.1514,0.0718,-0.0527,0.3942,-0.3859,0.0341,-0.0937,-0.0245,3825,2019-05-15 16:11:25:943
0.723,10.094,-0.1341,-0.0987,0.3269,-0.4491,0.0341,-0.0937,-0.0245,3835,2019-05-15 16:11:25:953
0.814,10.0173,-0.1293,-0.0626,0.269,-0.4441,0.0298,-0.065,-0.0224,3844,2019-05-15 16:11:25:962
0.814,10.0173,-0.1293,-0.0557,0.1538,-0.4062,0.0245,-0.0373,-0.0181,3854,2019-05-15 16:11:25:972
0.6369,9.9886,-0.1341,-0.0557,0.1538,-0.4062,0.0298,-0.0298,-0.0202,3864,2019-05-15 16:11:25:982
0.6369,9.9886,-0.1341,-0.0557,0.1538,-0.4062,0.0298,-0.0298,-0.0202,3874,2019-05-15 16:11:25:992
0.6369,9.9886,-0.1341,-0.0557,0.1538,-0.4062,0.0298,-0.0298,-0.0202,3884,2019-05-15 16:11:26:002
0.5842,10.0604,-0.1628,-0.1772,0.2204,-0.4343,0.0341,-0.0384,-0.0277,3894,2019-05-15 16:11:26:012
0.6704,9.9311,-0.1101,-0.134,0.1618,-0.3993,0.0202,-0.0437,-0.0288,3904,2019-05-15 16:11:26:022
0.6704,9.9311,-0.1101,-0.134,0.1618,-0.3993,0.0128,-0.0277,-0.033,3914,2019-05-15 16:11:26:032
0.8811,9.7779,-0.0958,-0.0241,0.0416,-0.3722,0.0117,-0.0043,-0.0373,3925,2019-05-15 16:11:26:043
0.8811,9.7779,-0.0958,6.0E-4,-0.0259,-0.3315,0.0117,-0.0043,-0.0373,3934,2019-05-15 16:11:26:052
0.5842,9.845,-0.0144,6.0E-4,-0.0259,-0.3315,0.0117,0.0288,-0.0394,3944,2019-05-15 16:11:26:062
0.5842,9.845,-0.0144,-0.2043,0.0741,-0.2956,0.0138,0.0245,-0.0415,3954,2019-05-15 16:11:26:072
0.4501,9.979,-0.1053,-0.3326,0.2076,-0.3837,0.016,0.0053,-0.0405,3964,2019-05-15 16:11:26:082
0.6129,9.8785,-0.158,-0.1666,0.1068,-0.4349,0.0096,-0.0202,-0.0341,3974,2019-05-15 16:11:26:092
0.6129,9.8785,-0.158,-0.1666,0.1068,-0.4349,0.0096,-0.0202,-0.0341,3985,2019-05-15 16:11:26:103
0.8475,9.8785,-0.1772,0.0713,0.1065,-0.453,0.0,-0.0288,-0.0362,3994,2019-05-15 16:11:26:112
0.838,9.8162,-0.1006,0.1217,0.0341,-0.3854,-0.0096,-0.0085,-0.0575,4005,2019-05-15 16:11:26:123
0.838,9.8162,-0.1006,0.0753,0.0432,-0.3761,-0.0117,0.0064,-0.066,4015,2019-05-15 16:11:26:133
0.838,9.8162,-0.1006,0.0753,0.0432,-0.3761,-0.0181,0.0202,-0.0639,4024,2019-05-15 16:11:26:142
0.6847,9.9264,-0.1245,-0.0688,0.1526,-0.4016,-0.0181,0.0202,-0.0639,4034,2019-05-15 16:11:26:152
0.6608,9.9359,-0.067,-0.1122,0.1377,-0.3573,-0.0341,0.0224,-0.0639,4044,2019-05-15 16:11:26:162
0.6608,9.9359,-0.067,-0.1122,0.1377,-0.3573,-0.0447,0.016,-0.0714,4054,2019-05-15 16:11:26:172
0.5986,9.9599,-0.0479,-0.1354,0.1849,-0.3338,-0.0511,-0.0011,-0.0735,4066,2019-05-15 16:11:26:184
0.5986,9.9599,-0.0479,-0.0964,0.2657,-0.2534,-0.0511,-0.0011,-0.0735,4074,2019-05-15 16:11:26:192
0.5842,10.1131,0.091,-0.0964,0.2657,-0.2534,-0.0575,-0.0213,-0.066,4084,2019-05-15 16:11:26:202
0.5602,10.0987,0.0527,-0.1789,0.3371,-0.2652,-0.065,-0.0288,-0.0554,4094,2019-05-15 16:11:26:212
0.5602,10.0987,0.0527,-0.1484,0.3225,-0.2536,-0.066,-0.0245,-0.0437,4105,2019-05-15 16:11:26:223
0.68,10.1754,0.0192,-0.0183,0.3463,-0.3236,-0.066,-0.0266,-0.0394,4114,2019-05-15 16:11:26:232
0.68,10.1754,0.0192,-0.0183,0.3463,-0.3236,-0.0724,-0.0202,-0.0415,4125,2019-05-15 16:11:26:243
0.7901,10.1227,0.0622,0.0909,0.3462,-0.2575,-0.0724,-0.0202,-0.0415,4134,2019-05-15 16:11:26:252
0.6321,10.1083,0.1772,-0.0581,0.3316,-0.1534,-0.0746,-0.0075,-0.0447,4144,2019-05-15 16:11:26:262
0.6321,10.1083,0.1772,-0.0581,0.3316,-0.1534,-0.0607,0.0117,-0.0554,4154,2019-05-15 16:11:26:272
0.4693,10.1323,0.3065,-0.1319,0.3743,-0.107,-0.0575,-0.0032,-0.0543,4164,2019-05-15 16:11:26:282
0.4693,10.1323,0.3065,-0.245,0.3406,-0.1074,-0.049,-0.017,-0.0469,4174,2019-05-15 16:11:26:292
0.5507,10.0365,0.1963,-0.245,0.3406,-0.1074,-0.0426,-0.0639,-0.0362,4184,2019-05-15 16:11:26:302
0.5507,10.0365,0.1963,-0.1206,0.2589,-0.1493,-0.0384,-0.0724,-0.032,4194,2019-05-15 16:11:26:312
0.7087,9.9647,0.0862,0.0415,0.1869,-0.262,-0.0341,-0.0618,-0.0298,4204,2019-05-15 16:11:26:322
0.7087,9.9647,0.0862,0.0415,0.1869,-0.262,-0.0341,-0.0618,-0.0298,4214,2019-05-15 16:11:26:332
0.5171,10.0269,0.1101,-0.026,0.1245,-0.2878,-0.0298,-0.0309,-0.0341,4224,2019-05-15 16:11:26:342
0.5171,10.0269,0.1101,-0.285,0.2343,-0.3883,-0.0138,-0.0213,-0.0309,4234,2019-05-15 16:11:26:352
0.4118,10.0317,-0.091,-0.285,0.2343,-0.3883,-0.0138,-0.0224,-0.0352,4245,2019-05-15 16:11:26:363
0.4788,10.0173,-0.0383,-0.2419,0.2531,-0.4406,-0.017,-0.0288,-0.0394,4254,2019-05-15 16:11:26:372
0.4788,10.0173,-0.0383,-0.1828,0.1713,-0.4171,-0.017,-0.0288,-0.0394,4264,2019-05-15 16:11:26:382
0.5555,9.9934,-0.0239,-0.1828,0.1713,-0.4171,-0.0256,-0.0202,-0.0607,4274,2019-05-15 16:11:26:392
0.5555,9.9934,-0.0239,-0.0821,0.2138,-0.3756,-0.033,-0.0043,-0.0799,4284,2019-05-15 16:11:26:402
0.4405,10.0413,-0.0192,-0.1847,0.261,-0.3737,-0.0394,0.0075,-0.0906,4294,2019-05-15 16:11:26:412
0.4405,10.0413,-0.0192,-0.1847,0.261,-0.3737,-0.0394,0.0075,-0.0906,4304,2019-05-15 16:11:26:422
0.3926,10.0365,-0.0718,-0.2232,0.2557,-0.4286,-0.0405,0.016,-0.0991,4314,2019-05-15 16:11:26:432
0.4214,10.003,-0.1532,-0.2139,0.1688,-0.5241,-0.0511,0.0192,-0.0948,4324,2019-05-15 16:11:26:442
0.4214,10.003,-0.1532,-0.2139,0.1688,-0.5241,-0.0511,0.0192,-0.0948,4335,2019-05-15 16:11:26:453
0.4357,10.0078,-0.2203,-0.1533,0.2257,-0.5875,-0.0607,0.0266,-0.0842,4344,2019-05-15 16:11:26:462
0.316,10.0413,-0.0814,-0.2577,0.2588,-0.4615,-0.0948,0.0394,-0.0692,4354,2019-05-15 16:11:26:472
0.316,10.0413,-0.0814,-0.2577,0.2588,-0.4615,-0.0948,0.0394,-0.0692,4365,2019-05-15 16:11:26:483
0.2538,10.1179,0.0479,-0.3463,0.2781,-0.3737,-0.1108,0.0405,-0.0352,4374,2019-05-15 16:11:26:492
0.2538,10.1179,0.0479,-0.3463,0.2781,-0.3737,-0.1289,0.0234,0.0021,4386,2019-05-15 16:11:26:504
0.34,10.1131,0.1006,-0.2495,0.3459,-0.3268,-0.1406,0.0085,0.0181,4395,2019-05-15 16:11:26:513
0.34,10.1131,0.1006,-0.1526,0.2894,-0.2732,-0.1523,-0.0021,0.0352,4405,2019-05-15 16:11:26:523
0.4549,10.0604,0.2346,-0.1526,0.2894,-0.2732,-0.1523,-0.0021,0.0352,4415,2019-05-15 16:11:26:533
0.4549,10.0604,0.2346,-0.1215,0.2811,-0.2165,-0.1673,0.0032,0.0607,4424,2019-05-15 16:11:26:542
0.4597,10.003,0.34,-0.1215,0.2811,-0.2165,-0.1704,0.0149,0.0906,4434,2019-05-15 16:11:26:552
0.4741,9.9455,0.5076,-0.1713,0.159,-0.0104,-0.1704,0.0011,0.1087,4445,2019-05-15 16:11:26:563
0.4741,9.9455,0.5076,-0.1713,0.159,-0.0104,-0.1704,0.0011,0.1087,4454,2019-05-15 16:11:26:572
0.814,9.912,0.3687,0.033,0.2233,0.0165,-0.1683,-0.0138,0.1172,4465,2019-05-15 16:11:26:583
0.814,9.912,0.3687,0.1894,0.1392,-0.1526,-0.1683,-0.0266,0.1097,4475,2019-05-15 16:11:26:593
0.8236,9.845,0.4549,0.185,0.0741,-0.0867,-0.1662,-0.0245,0.098,4485,2019-05-15 16:11:26:603
0.7518,9.8928,0.6081,0.1056,0.1232,0.0534,-0.1619,-0.016,0.0842,4494,2019-05-15 16:11:26:612
0.7518,9.8928,0.6081,0.1056,0.1232,0.0534,-0.1619,-0.016,0.0842,4504,2019-05-15 16:11:26:622
0.5746,10.0652,0.6847,-0.0423,0.2493,0.0459,-0.1427,-0.0064,0.0671,4515,2019-05-15 16:11:26:633
0.5746,10.0652,0.6847,-0.086,0.2982,0.103,-0.1257,-0.0064,0.0607,4525,2019-05-15 16:11:26:643
0.6033,10.0221,0.6847,-0.065,0.2564,0.0897,-0.1076,-0.0064,0.0554,4535,2019-05-15 16:11:26:653
0.6033,10.0221,0.6847,-0.065,0.2564,0.0897,-0.1076,-0.0064,0.0554,4544,2019-05-15 16:11:26:662
0.5986,10.0317,0.5602,-0.0184,0.2431,0.0316,-0.0874,0.0011,0.0447,4554,2019-05-15 16:11:26:672
0.5986,10.0317,0.5602,-0.1136,0.2917,-0.1197,-0.0724,0.0117,0.0362,4564,2019-05-15 16:11:26:682
0.5076,10.1227,0.5124,-0.1136,0.2917,-0.1197,-0.0692,0.0117,0.0277,4574,2019-05-15 16:11:26:692
0.5076,10.1227,0.5124,-0.1742,0.3594,-0.1065,-0.0575,0.0085,0.033,4584,2019-05-15 16:11:26:702
0.6512,10.0461,0.5698,-0.0907,0.3406,-0.081,-0.0479,0.0149,0.0394,4594,2019-05-15 16:11:26:712
0.6512,10.0461,0.5698,-0.0427,0.2549,-0.0652,-0.0405,0.0277,0.0405,4604,2019-05-15 16:11:26:722
0.6512,9.9168,0.6273,-0.0427,0.2549,-0.0652,-0.0405,0.0277,0.0405,4614,2019-05-15 16:11:26:732
0.5363,9.8497,0.6464,-0.0421,0.1548,-5.0E-4,-0.032,0.032,0.0352,4625,2019-05-15 16:11:26:743
0.5363,9.8497,0.6464,-0.1995,0.0738,-0.0726,-0.016,0.0213,0.0405,4636,2019-05-15 16:11:26:754
0.589,9.9072,0.5171,-0.1995,0.0738,-0.0726,-0.0128,0.0213,0.0511,4644,2019-05-15 16:11:26:762
0.589,9.9072,0.5171,-0.1147,0.146,-0.1101,-0.0128,0.0213,0.0511,4654,2019-05-15 16:11:26:772
0.7374,9.8737,0.4405,0.0265,0.1129,-0.1859,-0.0138,0.033,0.0597,4665,2019-05-15 16:11:26:783
0.7374,9.8737,0.4405,0.0265,0.1129,-0.1859,-0.0138,0.033,0.0597,4675,2019-05-15 16:11:26:793
0.6033,9.8545,0.4693,-0.0562,0.1133,-0.2,-0.0149,0.0309,0.0479,4684,2019-05-15 16:11:26:802
0.6129,9.8497,0.4214,-0.1095,0.0898,-0.2044,-0.016,0.0224,0.0479,4695,2019-05-15 16:11:26:813
0.6129,9.8497,0.4214,-0.1095,0.0898,-0.2044,-0.0202,0.0011,0.0469,4705,2019-05-15 16:11:26:823
0.7278,9.9311,0.3065,-0.139,0.162,-0.2047,-0.0202,0.0011,0.0469,4714,2019-05-15 16:11:26:832
0.7278,9.9311,0.3065,0.0863,0.2247,-0.4118,-0.0266,0.0075,0.0415,4725,2019-05-15 16:11:26:843
0.7805,10.0365,0.1963,0.0863,0.2247,-0.4118,-0.0394,0.0554,0.0245,4735,2019-05-15 16:11:26:853
0.7805,10.0365,0.1963,-0.0066,0.3209,-0.3685,-0.0533,0.0884,0.0107,4744,2019-05-15 16:11:26:862
0.565,10.0173,0.3879,-0.0066,0.3209,-0.3685,-0.0533,0.0884,0.0107,4755,2019-05-15 16:11:26:873
0.4884,9.979,0.498,-0.1681,0.2589,-0.2498,-0.0607,0.0927,0.0,4765,2019-05-15 16:11:26:883
0.4453,9.912,0.6177,-0.2856,0.1539,-0.0278,-0.0703,0.0586,-0.0011,4775,2019-05-15 16:11:26:893
0.4453,9.912,0.6177,-0.2856,0.1539,-0.0278,-0.0618,0.0266,0.0043,4784,2019-05-15 16:11:26:902
0.5507,9.9695,0.5746,-0.1786,0.2119,-0.0802,-0.0565,0.0288,0.0075,4794,2019-05-15 16:11:26:912
0.5507,9.9695,0.5746,-0.1347,0.2793,-0.1195,-0.0543,0.0575,0.0043,4805,2019-05-15 16:11:26:923
0.5794,10.0317,0.5507,-0.1347,0.2793,-0.1195,-0.0543,0.0575,0.0043,4815,2019-05-15 16:11:26:933
0.5794,10.0317,0.5507,-0.3105,0.2987,-0.0969,-0.0533,0.1129,0.0085,4825,2019-05-15 16:11:26:943
0.316,10.0652,0.7039,-0.4113,0.3088,0.031,-0.0501,0.114,0.0256,4834,2019-05-15 16:11:26:952
0.2538,10.0126,0.6752,-0.4113,0.3088,0.031,-0.0501,0.0895,0.0426,4844,2019-05-15 16:11:26:962
0.2538,10.0126,0.6752,-0.4917,0.1897,0.1114,-0.0501,0.0895,0.0426,4854,2019-05-15 16:11:26:972
0.2873,9.9455,0.814,-0.4521,0.1906,0.1315,-0.0469,0.0597,0.0597,4865,2019-05-15 16:11:26:983
0.2873,9.9455,0.814,-0.4521,0.1906,0.1315,-0.0352,0.0266,0.0937,4875,2019-05-15 16:11:26:993
0.5986,9.979,0.747,-0.1535,0.2253,0.0616,-0.033,0.0202,0.1097,4884,2019-05-15 16:11:27:002
0.7422,9.8976,0.5986,-0.0194,0.1448,-0.0887,-0.0298,0.0224,0.114,4895,2019-05-15 16:11:27:013
0.7422,9.8976,0.5986,-0.0194,0.1448,-0.0887,-0.0298,0.0224,0.114,4905,2019-05-15 16:11:27:023
0.8571,9.8737,0.723,-0.0385,0.0886,-0.0574,-0.0288,0.0511,0.1151,4914,2019-05-15 16:11:27:032
0.8571,9.8737,0.723,0.0676,0.1669,0.0165,-0.0245,0.081,0.1129,4924,2019-05-15 16:11:27:042
0.7709,9.9886,0.7853,0.0676,0.1669,0.0165,-0.0266,0.0746,0.1129,4935,2019-05-15 16:11:27:053
0.7709,9.9886,0.7853,-0.1139,0.2592,0.0522,-0.0256,0.0511,0.1108,4944,2019-05-15 16:11:27:062
0.7853,10.003,0.7039,-0.1139,0.2592,0.0522,-0.0256,0.0511,0.1108,4954,2019-05-15 16:11:27:072
0.9816,10.0126,0.6943,-0.0364,0.2557,0.0074,-0.0213,0.0213,0.1097,4964,2019-05-15 16:11:27:082
0.9816,10.0126,0.6943,-0.0364,0.2557,0.0074,-0.0202,0.0192,0.1055,4974,2019-05-15 16:11:27:092
1.312,9.9455,0.5124,0.3578,0.2046,-0.0856,-0.0224,0.0447,0.0863,4984,2019-05-15 16:11:27:102
1.3455,9.9216,0.6321,0.4975,0.1768,-0.069,-0.0277,0.0842,0.0682,4994,2019-05-15 16:11:27:112
1.3455,9.9216,0.6321,0.4975,0.1768,-0.069,-0.0266,0.082,0.0384,5004,2019-05-15 16:11:27:122
0.9002,9.9982,0.838,0.0472,0.2542,0.1328,-0.0202,0.0437,0.0256,5014,2019-05-15 16:11:27:132
0.9002,9.9982,0.838,0.0018,0.2449,0.2034,-0.0138,-0.0032,0.032,5024,2019-05-15 16:11:27:142
0.9673,9.9647,0.8092,0.0018,0.2449,0.2034,-0.0138,-0.0032,0.032,5034,2019-05-15 16:11:27:152
1.154,9.9886,0.68,0.2943,0.2452,-0.0257,-0.0064,-0.0298,0.0373,5045,2019-05-15 16:11:27:163
1.154,9.9886,0.68,0.2943,0.2452,-0.0257,-0.0064,-0.0298,0.0373,5054,2019-05-15 16:11:27:172
1.1396,9.8833,0.589,0.3352,0.1783,-0.101,-0.0011,-0.0021,0.0149,5064,2019-05-15 16:11:27:182
1.1396,9.8833,0.589,0.1022,0.2738,-0.1478,-0.0043,0.0256,-0.0021,5074,2019-05-15 16:11:27:192
0.7901,10.0078,0.6177,-0.1693,0.3263,-0.0605,0.0,0.0234,-0.0021,5085,2019-05-15 16:11:27:203
0.7901,10.0078,0.6177,-0.1693,0.3263,-0.0605,0.0,-0.0149,0.0032,5094,2019-05-15 16:11:27:212
0.6895,10.0078,0.68,-0.1692,0.2639,-0.0203,0.0,-0.0149,0.0032,5105,2019-05-15 16:11:27:223
0.7135,9.9503,0.656,-0.1692,0.2639,-0.0203,0.0053,-0.0533,0.0053,5115,2019-05-15 16:11:27:233
0.7135,9.9503,0.656,-0.1408,0.2158,-0.0314,0.0117,-0.0597,0.0053,5125,2019-05-15 16:11:27:243
0.7566,9.9407,0.6081,-0.102,0.1963,-0.0843,0.0192,-0.0533,0.0011,5134,2019-05-15 16:11:27:252
0.7566,9.9407,0.6081,-0.102,0.1963,-0.0843,0.0202,-0.0309,-0.0011,5145,2019-05-15 16:11:27:263
0.7614,10.0509,0.4741,-0.096,0.306,-0.2138,0.0202,0.0128,-0.0032,5155,2019-05-15 16:11:27:273
0.7661,10.0844,0.5986,-0.0901,0.3392,-0.0867,0.0202,0.0128,-0.0032,5165,2019-05-15 16:11:27:283
0.6991,9.9647,0.6081,-0.1565,0.2193,-0.0747,0.0213,0.0341,0.0011,5174,2019-05-15 16:11:27:292
0.6991,9.9647,0.6081,-0.1565,0.2193,-0.0747,0.0224,0.0426,0.0032,5185,2019-05-15 16:11:27:303
0.6991,9.9647,0.6081,-0.2753,0.1422,-0.0168,0.0213,0.0213,0.0075,5194,2019-05-15 16:11:27:312
0.6895,9.9024,0.6464,-0.1659,0.1564,-0.0268,0.0234,-0.0138,0.0192,5204,2019-05-15 16:11:27:322
0.6895,9.9024,0.6464,-0.1659,0.1564,-0.0268,0.0213,-0.0213,0.032,5214,2019-05-15 16:11:27:332
0.8092,9.8497,0.656,-0.0497,0.1037,-0.013,0.0202,-0.0053,0.0341,5224,2019-05-15 16:11:27:342
0.8092,9.8497,0.656,0.0231,0.1756,-0.0191,0.0202,-0.0053,0.0341,5234,2019-05-15 16:11:27:352
0.8428,9.8928,0.6081,-0.0229,0.147,-0.0553,0.0181,0.0192,0.0384,5245,2019-05-15 16:11:27:363
0.8428,9.8928,0.6081,-0.0229,0.147,-0.0553,0.017,0.0309,0.0447,5254,2019-05-15 16:11:27:372
0.814,9.912,0.6225,-0.0567,0.1664,-0.0382,0.0149,0.0224,0.0522,5264,2019-05-15 16:11:27:382
0.814,9.912,0.6225,0.0041,0.2003,-0.0978,0.0128,0.0181,0.0543,5274,2019-05-15 16:11:27:392
1.1013,9.9599,0.3352,0.0041,0.2003,-0.0978,0.0128,0.0181,0.0543,5284,2019-05-15 16:11:27:402
1.0008,10.0126,0.3543,0.1184,0.2679,-0.3042,-0.0266,-0.098,0.0256,5294,2019-05-15 16:11:27:412
1.0008,10.0126,0.3543,0.1184,0.2679,-0.3042,-0.0522,-0.0863,0.0021,5304,2019-05-15 16:11:27:422
1.0774,9.9168,0.4645,0.1947,0.1724,-0.1972,-0.0437,-0.0756,0.0043,5315,2019-05-15 16:11:27:433
1.0774,9.9168,0.4645,0.1947,0.1724,-0.1972,-0.0437,-0.0756,0.0043,5325,2019-05-15 16:11:27:443
1.0726,9.8976,0.8906,0.1825,0.1541,0.2254,-0.0245,0.0288,0.0714,5335,2019-05-15 16:11:27:453
1.0726,9.8976,0.8906,0.5754,0.0258,0.257,-0.0202,0.0607,0.0586,5344,2019-05-15 16:11:27:462
1.4796,9.6103,0.838,0.5754,0.0258,0.257,-0.0202,0.0607,0.0586,5354,2019-05-15 16:11:27:472
1.1253,9.6917,0.6656,0.2289,-0.0508,-0.0046,-0.0192,0.0202,-0.049,5364,2019-05-15 16:11:27:482
1.1253,9.6917,0.6656,-0.0217,0.1544,-0.0673,-0.0064,-0.0021,-0.0394,5374,2019-05-15 16:11:27:492
0.8284,9.9647,0.5363,-0.0217,0.1544,-0.0673,-0.0064,-0.0021,-0.0394,5384,2019-05-15 16:11:27:502